Date [s],Min:Temperature (Study 01 - Particles) [K]
0,323.15
0.02,323.106
0.04,323.065
0.06,323.037
0.08,323.018
0.1,323.009
0.12,323.006
0.14,323.004
0.16,323.001
0.18,322.985
0.2,322.961
0.22,322.935
0.24,322.907
0.26,322.877
0.28,322.842
0.3,322.805
0.32,322.766
0.34,322.726
0.36,322.684
0.38,322.641
0.4,322.596
0.42,322.549
0.44,322.501
0.46,322.451
0.48,322.4
0.5,322.347
0.52,322.293
0.54,322.237
0.56,322.18
0.58,322.122
0.6,322.063
0.62,322.002
0.64,321.94
0.66,321.877
0.68,321.813
0.7,321.747
0.72,321.68
0.74,321.613
0.76,321.544
0.78,321.474
0.8,321.403
0.82,321.331
0.84,321.257
0.86,321.183
0.88,321.108
0.9,321.032
0.92,320.955
0.94,320.877
0.96,320.799
0.98,320.719
1,320.639
1.02,320.558
1.04,320.476
1.06,320.393
1.08,320.309
1.1,320.224
1.12,320.138
1.14,320.052
1.16,319.965
1.18,319.876
1.2,319.786
1.22,319.694
1.24,319.599
1.26,319.501
1.28,319.403
1.3,319.305
1.32,319.208
1.34,319.114
1.36,319.021
1.38,318.927
1.4,318.833
1.42,318.739
1.44,318.643
1.46,318.546
1.48,318.449
1.5,318.352
1.52,318.253
1.54,318.154
1.56,318.053
1.58,317.951
1.6,317.846
1.62,317.74
1.64,317.638
1.66,317.539
1.68,317.442
1.7,317.371
1.72,317.3
1.74,317.229
1.76,317.154
1.78,317.077
1.8,316.995
1.82,316.908
1.84,316.818
1.86,316.728
1.88,316.641
1.9,316.559
1.92,316.478
1.94,316.398
1.96,316.322
1.98,316.251
2,316.179
2.02,316.107
2.04,316.031
2.06,315.952
2.08,315.87
2.1,315.782
2.12,315.697
2.14,315.624
2.16,315.561
2.18,315.497
2.2,315.435
2.22,315.372
2.24,315.291
2.26,315.232
2.28,315.191
2.3,315.171
2.32,315.106
2.34,315.051
2.36,315.006
2.38,314.979
2.4,314.917
2.42,314.849
2.44,314.779
2.46,314.704
2.48,314.62
2.5,314.534
2.52,314.448
2.54,314.369
2.56,314.3
2.58,314.241
2.6,314.179
2.62,314.13
2.64,314.074
2.66,314.012
2.68,313.968
2.7,313.895
2.72,313.83
2.74,313.774
2.76,313.721
2.78,313.674
2.8,313.627
2.82,313.578
2.84,313.527
2.86,313.473
2.88,313.42
2.9,313.38
2.92,313.345
2.94,313.311
2.96,313.279
2.98,313.238
3,313.188
3.02,313.111
3.04,313.038
3.06,312.969
3.08,312.912
3.1,312.868
3.12,312.822
3.14,312.756
3.16,312.685
3.18,312.615
3.2,312.55
3.22,312.486
3.24,312.423
3.26,312.357
3.28,312.287
3.3,312.214
3.32,312.141
3.34,312.071
3.36,312.005
3.38,311.941
3.4,311.874
3.42,311.809
3.44,311.747
3.46,311.686
3.48,311.624
3.5,311.564
3.52,311.501
3.54,311.435
3.56,311.364
3.58,311.293
3.6,311.225
3.62,311.159
3.64,311.095
3.66,311.033
3.68,310.973
3.7,310.912
3.72,310.848
3.74,310.779
3.76,310.712
3.78,310.647
3.8,310.584
3.82,310.524
3.84,310.465
3.86,310.406
3.88,310.347
3.9,310.28
3.92,310.209
3.94,310.135
3.96,310.064
3.98,309.995
4,309.946
4.02,309.904
4.04,309.859
4.06,309.809
4.08,309.756
4.1,309.713
4.12,309.674
4.14,309.631
4.16,309.589
4.18,309.544
4.2,309.503
4.22,309.444
4.24,309.386
4.26,309.33
4.28,309.274
4.3,309.219
4.32,309.164
4.34,309.1
4.36,309.031
4.38,308.961
4.4,308.892
4.42,308.825
4.44,308.765
4.46,308.727
4.48,308.686
4.5,308.644
4.52,308.597
4.54,308.547
4.56,308.493
4.58,308.433
4.6,308.371
4.62,308.308
4.64,308.241
4.66,308.174
4.68,308.107
4.7,308.057
4.72,308.015
4.74,307.979
4.76,307.952
4.78,307.912
4.8,307.878
4.82,307.863
4.84,307.853
4.86,307.846
4.88,307.857
4.9,307.867
4.92,307.875
4.94,307.879
4.96,307.885
4.98,307.898
5,307.912
5.02,307.93
5.04,307.954
5.06,307.978
5.08,308
5.1,308.023
5.12,308.046
5.14,308.066
5.16,308.088
5.18,308.112
5.2,308.139
5.22,308.164
5.24,308.187
5.26,308.205
5.28,308.217
5.3,308.223
5.32,308.221
5.34,308.208
5.36,308.198
5.38,308.199
5.4,308.202
5.42,308.202
5.44,308.201
5.46,308.206
5.48,308.217
5.5,308.236
5.52,308.25
5.54,308.261
5.56,308.275
5.58,308.288
5.6,308.307
5.62,308.334
5.64,308.368
5.66,308.404
5.68,308.442
5.7,308.479
5.72,308.517
5.74,308.553
5.76,308.587
5.78,308.618
5.8,308.649
5.82,308.678
5.84,308.629
5.86,308.564
5.88,308.502
5.9,308.443
5.92,308.385
5.94,308.328
5.96,308.269
5.98,308.211
6,308.153
6.02,308.095
6.04,308.037
6.06,307.979
6.08,307.929
6.1,307.883
6.12,307.837
6.14,307.805
6.16,307.78
6.18,307.752
6.2,307.724
6.22,307.708
6.24,307.686
6.26,307.662
6.28,307.635
6.3,307.613
6.32,307.599
6.34,307.594
6.36,307.596
6.38,307.603
6.4,307.612
6.42,307.622
6.44,307.637
6.46,307.65
6.48,307.617
6.5,307.581
6.52,307.542
6.54,307.502
6.56,307.465
6.58,307.428
6.6,307.386
6.62,307.353
6.64,307.319
6.66,307.301
6.68,307.303
6.7,307.319
6.72,307.324
6.74,307.335
6.76,307.349
6.78,307.364
6.8,307.377
6.82,307.386
6.84,307.395
6.86,307.411
6.88,307.43
6.9,307.453
6.92,307.483
6.94,307.509
6.96,307.52
6.98,307.457
7,307.399
7.02,307.347
7.04,307.3
7.06,307.257
7.08,307.214
7.1,307.174
7.12,307.14
7.14,307.121
7.16,307.111
7.18,307.095
7.2,307.078
7.22,307.064
7.24,307.053
7.26,307.051
7.28,307.059
7.3,307.073
7.32,307.087
7.34,307.101
7.36,307.114
7.38,307.132
7.4,307.153
7.42,307.177
7.44,307.201
7.46,307.227
7.48,307.255
7.5,307.284
7.52,307.312
7.54,307.335
7.56,307.357
7.58,307.373
7.6,307.378
7.62,307.371
7.64,307.362
7.66,307.349
7.68,307.338
7.7,307.338
7.72,307.344
7.74,307.357
7.76,307.374
7.78,307.394
7.8,307.416
7.82,307.381
7.84,307.315
7.86,307.268
7.88,307.232
7.9,307.194
7.92,307.161
7.94,307.135
7.96,307.106
7.98,307.076
8,307.049
8.02,307.03
8.04,307.019
8.06,307.02
8.08,307.021
8.1,307.026
8.12,307.036
8.14,307.052
8.16,307.07
8.18,307.09
8.2,307.112
8.22,307.137
8.24,307.162
8.26,307.168
8.28,307.18
8.3,307.196
8.32,307.216
8.34,307.235
8.36,307.261
8.38,307.287
8.4,307.312
8.42,307.338
8.44,307.362
8.46,307.385
8.48,307.405
8.5,307.421
8.52,307.436
8.54,307.452
8.56,307.468
8.58,307.488
8.6,307.509
8.62,307.535
8.64,307.562
8.66,307.593
8.68,307.62
8.7,307.649
8.72,307.678
8.74,307.699
8.76,307.721
8.78,307.749
8.8,307.779
8.82,307.808
8.84,307.831
8.86,307.852
8.88,307.873
8.9,307.895
8.92,307.918
8.94,307.941
8.96,307.965
8.98,307.984
9,307.994
9.02,307.954
9.04,307.913
9.06,307.884
9.08,307.852
9.1,307.819
9.12,307.78
9.14,307.739
9.16,307.701
9.18,307.666
9.2,307.63
9.22,307.593
9.24,307.557
9.26,307.519
9.28,307.484
9.3,307.454
9.32,307.428
9.34,307.406
9.36,307.373
9.38,307.339
9.4,307.306
9.42,307.284
9.44,307.269
9.46,307.229
9.48,307.206
9.5,307.205
9.52,307.193
9.54,307.193
9.56,307.203
9.58,307.215
9.6,307.229
9.62,307.206
9.64,307.177
9.66,307.158
9.68,307.142
9.7,307.131
9.72,307.129
9.74,307.137
9.76,307.144
9.78,307.147
9.8,307.145
9.82,307.141
9.84,307.143
9.86,307.158
9.88,307.179
9.9,307.203
9.92,307.227
9.94,307.251
9.96,307.274
9.98,307.296
10,307.318
